Folder: McCode/mcstas-comps/examples/Tests_polarization/Test_V_cavity_SNAG_single_side

Note: README
/*******************************************************************************
*
* McStas, neutron ray-tracing package
*         Copyright 1997-2018, All rights reserved
*         Technical University of Denmark, Kongens Lyngby, Denmark
*         Institut Laue Langevin, Grenoble, France
*
* Documentation: README
*
* %Identification
* Written by: KN, KL, PEO, EF, PW
* Date: 2008
* Origin: Risoe
* Release: all McStas
*
* This file is part of McStas.
*
* %Link
* <a href="http://www.mcstas.org">Official McStas website</a>
*
* %End
*******************************************************************************/

This is McStas 2.x

Copyright (C) Technical University of Denmark, 1997-. All rights reserved.
See the file COPYING for conditions on use.

This software is covered by the GNU General Public License. User instrument
files generated by McStas, output data or papers based on these use is NOT
considered "derived work" but is considered normal usage of the software.

The random number algorithm used by default in McStas is the "Mersenne Twister",
by Makoto Matsumoto and Takuji Nishimura
(see http://www.math.keio.ac.jp/~matumoto/emt.html). This code is included in
the file lib/mcstas-r.c and is distributed under the terms of the GNU
Library General Public License, see the file lib/LGPL.

If you wish to use McStas in ways that contradict the conditions,
contact us and chances are that we will be able to make a suitable
arrangement.

Installation instructions are in the doc/install_docs directory.

Changes from previous versions are in the file CHANGES. Please read that !

To get started, some example instrument definitions have been supplied
in the mcstas-comps/examples/ directory. To run a simulation, the command `mcrun' is
used. For example:

    mcrun ISIS_Prisma2.instr -n2e6 TT=-30 PHA=22 PHA1=-3 PHA2=-2 PHA3=-1 PHA4=0 PHA5=1 PHA6=2 PHA7=3 TTA=44

This will first compile the instrument definition (if necessary) and
subsequently run it. It is also possible to run simulations from the
graphical user interface `mcgui', or to compile and run simulations
manually.

The output files will be put in the current directory by default. The
file tas1-scans in the example directory is a script that will run a
series of simulations that constitute a line-up experiment of the TAS1
spectrometer at Ris.

To fully utilize McStas, you will need a copy of the McStas manual. It
may be found in the lib/doc directory of the distribution.
The manual, along with much other information, is
available from the McStas WWW home page:

    http://www.mcstas.org

Contacts for McStas are:
  Kim Lefmann <lefmann@nbi.dk> (KL)
  Emmanuel Farhi <farhi@ill.fr> (EF)
  Peter Kjaer Willendrup <pkwi@fysik.dtu.dk> (PW)
  Erik Knudsen <erkn@fysik.dtu.dk> (EK)

Previous authors are:
  Kristian Nielsen, email <kristian.nielsen@risoe.dk> (KN)
  Per-Olof ï¿½trand <per-olof.aastrand@risoe.dk> (PEO)
  Klaus Lieutenant <lieutena@ill.fr> (KL2)
  Peter Christiansen <peter.christiansen@risoe.dk> 

File: FeSi_m50_down.dat
#  Swiss Neutronics FeSi supermirror coating on glass
#  FeSi
#  Reference: http://www.swissneutronics.ch/
#  m 5
#  alpha 3.2
#  polarisation 0.99
#   spin down
#  date 23-May-13
#  reflectivity single-layer
#  FeSi_m50_down
#  for McStas input
#  Data: q [AA-1], R[0-1]
#
0.00000 1.00000
0.00274 1.00000
0.00548 1.00000
0.00822 1.00000
0.01097 1.00000
0.01371 1.00000
0.01645 0.15814
0.01919 0.03303
0.02193 0.00959
0.02467 0.00571
0.02742 0.00505
0.03016 0.00491
0.03290 0.00485
0.03564 0.00480
0.03838 0.00476
0.04112 0.00471
0.04386 0.00467
0.04660 0.00463
0.04934 0.00458
0.05209 0.00454
0.05483 0.00449
0.05757 0.00445
0.06031 0.00440
0.06305 0.00436
0.06579 0.00432
0.06853 0.00427
0.07127 0.00423
0.07401 0.00418
0.07675 0.00414
0.07949 0.00410
0.08223 0.00405
0.08497 0.00401
0.08771 0.00396
0.09045 0.00392
0.09319 0.00388
0.09593 0.00383
0.09867 0.00379
0.10141 0.00374
0.10415 0.00369
0.10689 0.00340
0.10963 0.00076
0.11237 0.00002
0.11511 0.00000
0.11784 0.00000
0.12058 0.00000
0.12332 0.00000
0.12606 0.00000
0.12880 0.00000
0.13153 0.00000
0.13427 0.00000
0.13701 0.00000
0.13975 0.00000
0.14248 0.00000

File: FeSi_m50_up_R2.dat
#  Swiss Neutronics FeSi supermirror coating on glass
#  FeSi
#  Reference: http://www.swissneutronics.ch/
#  m 5
#  alpha 3.2
#  polarisation 0.99
#   spin up
#  date 23-May-13
#  reflectivity double-layer R'=1-(1-R)^2
#  FeSi_m50_up_R2
#  for McStas input
#  Data: q [AA-1], R'[0-1]
#
0.00000 1.00000
0.00274 1.00000
0.00548 1.00000
0.00822 1.00000
0.01097 1.00000
0.01371 1.00000
0.01645 1.00000
0.01919 1.00000
0.02193 1.00000
0.02467 0.99991
0.02742 0.99967
0.03016 0.99927
0.03290 0.99873
0.03564 0.99802
0.03838 0.99716
0.04112 0.99615
0.04386 0.99499
0.04660 0.99367
0.04934 0.99220
0.05209 0.99057
0.05483 0.98879
0.05757 0.98686
0.06031 0.98477
0.06305 0.98253
0.06579 0.98013
0.06853 0.97758
0.07127 0.97488
0.07401 0.97202
0.07675 0.96901
0.07949 0.96585
0.08223 0.96253
0.08497 0.95906
0.08771 0.95543
0.09045 0.95165
0.09319 0.94772
0.09593 0.94364
0.09867 0.93940
0.10141 0.93499
0.10415 0.92988
0.10689 0.89560
0.10963 0.27817
0.11237 0.00739
0.11511 0.00015
0.11784 0.00000
0.12058 0.00000
0.12332 0.00000
0.12606 0.00000
0.12880 0.00000
0.13153 0.00000
0.13427 0.00000
0.13701 0.00000
0.13975 0.00000
0.14248 0.00000